##TITLE= Aquation of trans-[Co(en)2Cl2]+
##DATA TYPE= LINK
##BLOCKS= 20
##CONCENTRATION= [Co(en)2Cl2]+ 6mM, [H+] 0.1 M HNO3, I= 0.4M KNO3
##COMMENT= Time in 15 minute intervals, t1= 0, t2 = 15,  ....t20 = 285 minutes
##TITLE= Aquation of trans-[Co(en)2Cl2]+ (t1)
##JCAMP-DX= 4.24
##DATA TYPE= UV/VIS SPECTRUM
##BLOCK_ID=1
##ORIGIN= Dept of Chem, UWI, Mona, JAMAICA $$Exported PE IR WinLab Data File
##OWNER= R.J. Lancashire
##DATE= 96/11/06
##TIME= 19:14:14.00
##SPECTROMETER/DATA SYSTEM= PERKIN-ELMER LAMBDA 19 UV/VIS/NIR UV
##RESOLUTION= 1.000000
##DELTAX= -1.000000
##XUNITS= nanometers
##YUNITS= ABSORBANCE
##XFACTOR= 1.00
##YFACTOR= .00000011920928955078
##FIRSTX= 700.00
##LASTX= 350.00
##NPOINTS= 351
##FIRSTY= .20
##MAXY= -.005953
##MINY= .20
##XYDATA= (X++(Y..Y))
  700.000000  -49938   -46272   -42396   -38487   -33496   
  695.000000  -29461   -23832   -19353   -14487   -8926    
  690.000000  -2777    2207     8582     14353    20997    
  685.000000  27406    33353    40551    47295    54468    
  680.000000  61447    68384    76647    82695    90891    
  675.000000  98516    106586   114899   122726   130275   
  670.000000  138404   146356   155349   163956   172487   
  665.000000  181664   190044   198299   206813   216057   
  660.000000  225679   234881   243379   253135   261993   
  655.000000  270952   279375   289391   298266   307334   
  650.000000  316771   325956   335167   344302   352800   
  645.000000  361667   370097   379467   388032   395850   
  640.000000  404214   412519   419691   427358   434740   
  635.000000  441627   449185   455468   461634   467128   
  630.000000  474242   479376   484585   489987   495062   
  625.000000  498921   503485   508124   511395   514818   
  620.000000  518341   521134   524154   525840   527627   
  615.000000  529481   530420   531779   532140   532820   
  610.000000  533650   532492   532442   530798   530177   
  605.000000  529011   527610   525538   523399   521512   
  600.000000  518894   516260   513710   510330   506983   
  595.000000  503149   499458   495943   492521   488628   
  590.000000  483813   479057   475358   470115   465828   
  585.000000  461038   456701   450972   445612   441610   
  580.000000  436560   431309   426603   421167   416193   
  575.000000  411957   405766   401404   397008   392117   
  570.000000  387940   383226   379837   375089   371414   
  565.000000  367631   364620   361130   358873   355434   
  560.000000  352817   349268   347540   344361   342977   
  555.000000  341014   339454   337222   335989   335201   
  550.000000  334345   332634   331921   331627   331157   
  545.000000  331292   331485   331711   331862   332441   
  540.000000  333498   333313   335041   336056   337264   
  535.000000  339496   340897   342398   344160   346022   
  530.000000  348178   351231   353127   354964   357615   
  525.000000  360283   362732   364813   367312   369988   
  520.000000  372689   375315   377823   380659   383553   
  515.000000  386891   389643   392470   395641   398560   
  510.000000  401722   404927   408039   411453   414842   
  505.000000  417870   421746   425429   429044   432081   
  500.000000  435596   439362   442466   446065   449688   
  495.000000  454118   458111   462129   465727   470140   
  490.000000  475173   479191   483461   488603   493401   
  485.000000  497319   503250   507998   513224   518290   
  480.000000  522720   527803   532400   537484   541317   
  475.000000  545889   549630   553925   557616   561978   
  470.000000  565149   569092   572263   575417   578244   
  465.000000  580509   583529   585685   588545   589761   
  460.000000  591775   593016   594199   595533   595935   
  455.000000  596523   597437   597924   598410   598553   
  450.000000  599400   599173   600071   599450   600700   
  445.000000  600365   600952   601791   601506   601178   
  440.000000  603091   604064   604517   606111   607394   
  435.000000  609374   612092   614181   617670   620606   
  430.000000  624809   627795   632552   636872   642543   
  425.000000  648129   653506   660754   666903   673975   
  420.000000  681415   689133   696532   704383   712462   
  415.000000  720708   728954   736612   745672   754346   
  410.000000  762886   770226   779822   788018   796742   
  405.000000  805030   812060   821715   829248   837938   
  400.000000  845924   853910   862483   870771   878481   
  395.000000  886584   893924   901952   910399   916867   
  390.000000  925113   932897   939894   946974   954683   
  385.000000  960957   968566   976275   982625   988447   
  380.000000  995929   997137   1001390  1007237  1014342  
  375.000000  1021464  1027160  1033083  1039617  1044760  
  370.000000  1051093  1058198  1064120  1072660  1079816  
  365.000000  1086912  1097658  1109612  1124258  1140365  
  360.000000  1159004  1182828  1208304  1239803  1277527  
  355.000000  1322783  1376219  1437757  1512735  1600899  
  350.000000  1700422  
##END= 
##TITLE= Aquation of trans-[Co(en)2Cl2]+ (t2)
##JCAMP-DX= 4.24
##DATA TYPE= UV/VIS SPECTRUM
##BLOCK_ID=2
##ORIGIN= Dept of Chem, UWI, Mona, JAMAICA $$Exported PE IR WinLab Data File
##OWNER= R.J. Lancashire
##DATE= 96/11/06
##TIME= 19:12:23.00
##SPECTROMETER/DATA SYSTEM= PERKIN-ELMER LAMBDA 19 UV/VIS/NIR UV
##RESOLUTION= 1.000000
##DELTAX= -1.000000
##XUNITS= nanometers
##YUNITS= ABSORBANCE
##XFACTOR= 1.00
##YFACTOR= .00000011920928955078
##FIRSTX= 700.00
##LASTX= 350.00
##NPOINTS= 351
##FIRSTY= .19
##MAXY= -.007515
##MINY= .19
##XYDATA= (X++(Y..Y))
  700.000000  -63041   -58821   -53964   -50181   -44938   
  695.000000  -40677   -36306   -31474   -26324   -21383   
  690.000000  -14806   -8808    -3490    1460     7114     
  685.000000  12952    19437    25057    32406    38059    
  680.000000  45525    53243    58737    66530    73065    
  675.000000  82041    88869    96193    104027   112500   
  670.000000  120385   127809   136307   144461   153411   
  665.000000  162714   170230   179181   187293   196764   
  660.000000  205421   213994   223481   232541   241139   
  655.000000  250837   260005   268058   277227   286580   
  650.000000  295900   304305   312518   321485   330562   
  645.000000  339278   347524   355971   364351   371842   
  640.000000  380608   387596   395305   402024   410312   
  635.000000  417485   424648   430965   437944   444160   
  630.000000  449772   455770   461315   466726   471541   
  625.000000  475853   481624   484518   489442   492143   
  620.000000  495482   498636   502210   504768   506815   
  615.000000  507838   509390   511605   512897   513207   
  610.000000  513727   514423   514449   514021   513601   
  605.000000  512494   511395   509717   509466   506756   
  600.000000  505288   502956   500867   498242   495767   
  595.000000  492571   490465   486800   484048   480701   
  590.000000  477413   473864   469788   466080   462397   
  585.000000  458211   454487   450418   446039   441887   
  580.000000  437861   433691   429497   425185   420974   
  575.000000  416528   412183   408777   405296   401026   
  570.000000  397620   394466   390196   386975   384358   
  565.000000  381078   377689   375256   371909   369519   
  560.000000  366188   364360   362715   361163   359553   
  555.000000  358353   357061   355702   355484   354511   
  550.000000  354302   354159   353295   353228   353605   
  545.000000  354142   354989   355837   357774   358420   
  540.000000  359855   360920   362883   364980   366910   
  535.000000  368957   371003   373126   375139   377681   
  530.000000  380306   383142   385641   388192   390599   
  525.000000  393258   396563   399256   402142   404482   
  520.000000  407418   410170   413357   416553   419473   
  515.000000  422593   425596   428465   431871   434413   
  510.000000  437609   440729   443816   445855   448892   
  505.000000  452507   455535   458253   462045   464352   
  500.000000  467942   470534   473906   477513   481171   
  495.000000  484258   487504   490684   493804   497982   
  490.000000  501488   504877   508837   513148   516990   
  485.000000  521453   525110   529489   533944   538784   
  480.000000  542987   546862   550276   553967   557079   
  475.000000  560670   564168   566978   569914   573001   
  470.000000  575945   578823   580953   583713   585139   
  465.000000  587136   588361   590676   591456   593067   
  460.000000  593855   594350   595600   596011   595868   
  455.000000  596212   595868   596187   595885   595743   
  450.000000  595541   594618   594249   593989   594165   
  445.000000  594182   594014   593603   593352   592941   
  440.000000  593218   595013   595164   596221   597798   
  435.000000  599291   600432   603963   605935   609525   
  430.000000  612964   616588   620749   625203   631394   
  425.000000  636528   643096   648624   654865   662113   
  420.000000  670040   677280   685333   693772   701405   
  415.000000  710515   718862   727813   737426   745823   
  410.000000  755059   763439   773061   781894   791717   
  405.000000  799753   809207   819693   828401   837502   
  400.000000  846033   855513   864614   872927   881819   
  395.000000  890703   898815   906297   916179   924240   
  390.000000  932411   940388   949155   956579   964439   
  385.000000  972911   979563   987893   995938   1001449  
  380.000000  1008496  1010635  1015173  1021020  1028804  
  375.000000  1034324  1042604  1048383  1053803  1059591  
  370.000000  1065580  1070085  1076922  1083448  1091987  
  365.000000  1099898  1108823  1119754  1131984  1147579  
  360.000000  1164549  1185848  1211768  1240801  1276436  
  355.000000  1319394  1369634  1427062  1497719  1580162  
  350.000000  1675281  
##END= 
##TITLE= Aquation of trans-[Co(en)2Cl2]+ (t3)
##JCAMP-DX= 4.24
##DATA TYPE= UV/VIS SPECTRUM
##BLOCK_ID=3
##ORIGIN= Dept of Chem, UWI, Mona, JAMAICA $$Exported PE IR WinLab Data File
##OWNER= R.J. Lancashire
##DATE= 96/11/06
##TIME= 19:13:04.00
##SPECTROMETER/DATA SYSTEM= PERKIN-ELMER LAMBDA 19 UV/VIS/NIR UV
##RESOLUTION= 1.000000
##DELTAX= -1.000000
##XUNITS= nanometers
##YUNITS= ABSORBANCE
##XFACTOR= 1.00
##YFACTOR= .00000011920928955078
##FIRSTX= 700.00
##LASTX= 350.00
##NPOINTS= 351
##FIRSTY= .19
##MAXY= -.008062
##MINY= .19
##XYDATA= (X++(Y..Y))
  700.000000  -67629   -63167   -59601   -54275   -49728   
  695.000000  -46138   -41516   -36491   -32020   -27255   
  690.000000  -21836   -16685   -10570   -5537    -143     
  685.000000  5847     11837    18254    24017    30686    
  680.000000  36533    43873    51263    58310    65306    
  675.000000  72436    78845    86411    95287    102006   
  670.000000  109782   117609   126148   133656   142263   
  665.000000  150928   159308   166992   175717   185003   
  660.000000  193467   202401   211024   219782   228380   
  655.000000  237616   246105   254729   264770   272882   
  650.000000  281178   290724   298417   307476   315907   
  645.000000  324103   333783   340267   348740   356944   
  640.000000  364250   372413   379686   387739   395272   
  635.000000  401680   408584   415790   422241   428683   
  630.000000  435092   440889   445956   451584   456676   
  625.000000  461089   466407   470324   473621   478185   
  620.000000  482538   485692   488024   491086   493217   
  615.000000  495415   497512   500012   501320   502512   
  610.000000  503602   503376   504458   504701   503862   
  605.000000  504969   503476   502637   501790   500238   
  600.000000  499315   497629   495935   494735   492118   
  595.000000  489971   487345   484778   482127   479585   
  590.000000  476540   473739   470232   467145   464276   
  585.000000  459721   456366   453346   449084   445863   
  580.000000  442567   438481   435285   432014   427710   
  575.000000  424707   421184   417988   414783   412107   
  570.000000  408307   405078   403081   399902   397495   
  565.000000  395070   393082   391035   390155   388510   
  560.000000  387311   385281   383980   383569   383293   
  555.000000  381900   381573   381858   380675   381397   
  550.000000  381447   381388   382328   383142   383653   
  545.000000  385230   386749   387571   389727   391472   
  540.000000  393107   395959   396832   399155   401605   
  535.000000  404197   406588   409088   411655   414691   
  530.000000  417359   420127   423264   425731   429464   
  525.000000  431871   434782   437710   440226   443137   
  520.000000  446392   449747   452247   455602   458698   
  515.000000  461298   464654   468060   470425   473462   
  510.000000  476775   479451   482396   485357   487798   
  505.000000  490449   493863   496572   499106   502017   
  500.000000  504735   506219   509919   512318   514541   
  495.000000  517359   520555   523265   525882   528835   
  490.000000  532467   534573   537568   541233   544706   
  485.000000  548674   551644   554127   558011   561584   
  480.000000  565292   567817   570904   573806   576205   
  475.000000  578814   582145   584376   585693   588579   
  470.000000  590072   592161   593377   595701   596799   
  465.000000  597781   598855   599819   600239   600792   
  460.000000  600616   601212   600532   599752   600256   
  455.000000  600079   599048   598754   597823   596321   
  450.000000  595675   595633   594358   593327   593067   
  445.000000  593109   591548   591179   591540   590995   
  440.000000  590600   591104   590953   592110   593729   
  435.000000  594258   597328   598662   600558   604106   
  430.000000  608091   610733   616026   620799   625958   
  425.000000  631000   637199   642979   649178   656778   
  420.000000  663858   671567   679251   688411   695961   
  415.000000  704862   714257   723778   732309   741327   
  410.000000  751578   760495   770729   780552   790627   
  405.000000  800299   810222   818737   829776   839398   
  400.000000  847887   857526   867282   878380   886525   
  395.000000  894536   904846   914845   923133   932000   
  390.000000  940640   950421   958961   967610   976334   
  385.000000  984815   991542   999755   1008361  1014695  
  380.000000  1022555  1024367  1028880  1036463  1045154  
  375.000000  1050892  1057905  1063131  1070756  1075604  
  370.000000  1081342  1087139  1091736  1099059  1105996  
  365.000000  1112808  1121918  1131389  1143041  1156857  
  360.000000  1174397  1193557  1217632  1245860  1279238  
  355.000000  1318933  1368040  1423262  1491638  1570692  
  350.000000  1661289  
##END= 
##TITLE= Aquation of trans-[Co(en)2Cl2]+ (t4)
##JCAMP-DX= 4.24
##DATA TYPE= UV/VIS SPECTRUM
##BLOCK_ID=4
##ORIGIN= Dept of Chem, UWI, Mona, JAMAICA $$Exported PE IR WinLab Data File
##OWNER= R.J. Lancashire
##DATE= 96/11/06
##TIME= 19:12:56.00
##SPECTROMETER/DATA SYSTEM= PERKIN-ELMER LAMBDA 19 UV/VIS/NIR UV
##RESOLUTION= 1.000000
##DELTAX= -1.000000
##XUNITS= nanometers
##YUNITS= ABSORBANCE
##XFACTOR= 1.00
##YFACTOR= .00000011920928955078
##FIRSTX= 700.00
##LASTX= 350.00
##NPOINTS= 351
##FIRSTY= .19
##MAXY= -.008960
##MINY= .19
##XYDATA= (X++(Y..Y))
  700.000000  -75162   -70700   -66656   -62856   -58888   
  695.000000  -54551   -49317   -44418   -40568   -35769   
  690.000000  -30921   -25745   -19982   -14974   -8834    
  685.000000  -3985    2207     7558     14118    20368    
  680.000000  26768    32330    39519    46163    52882    
  675.000000  59710    66874    74474    82578    89389    
  670.000000  97577    104757   112299   120545   127700   
  665.000000  135929   143404   152119   160600   168217   
  660.000000  177050   185590   194205   202459   210999   
  655.000000  220185   228565   236358   245166   254997   
  650.000000  262245   270575   279458   288090   295615   
  645.000000  303324   312317   320235   328507   336660   
  640.000000  343917   351198   357858   365987   373755   
  635.000000  380843   387269   393887   400959   406915   
  630.000000  412997   419280   424464   429975   434304   
  625.000000  439521   445393   449881   454311   457800   
  620.000000  461382   464838   468076   471256   473571   
  615.000000  475718   478378   479804   482060   483964   
  610.000000  484753   485701   486322   487211   487899   
  605.000000  487202   486758   486598   485692   485650   
  600.000000  485499   483251   482379   481196   479443   
  595.000000  477530   476079   473906   471876   470081   
  590.000000  467674   465274   463421   459797   456894   
  585.000000  454378   451140   448137   445477   442592   
  580.000000  439714   436753   434027   431661   429011   
  575.000000  425487   423357   420454   417854   415119   
  570.000000  413324   411101   408005   405799   403752   
  565.000000  403056   400540   399676   399508   398375   
  560.000000  397318   396823   396161   395372   395238   
  555.000000  395506   394500   395246   395758   396253   
  550.000000  396748   398241   399281   400682   402528   
  545.000000  404507   406135   408014   410665   412158   
  540.000000  415085   417258   419255   421578   425219   
  535.000000  427215   430101   433675   436778   439899   
  530.000000  442978   446778   449596   453363   456215   
  525.000000  459663   462439   465727   468622   471767   
  520.000000  475500   478159   481532   485105   488670   
  515.000000  491682   494517   496749   499525   502285   
  510.000000  505448   508375   511387   514331   517150   
  505.000000  519557   521889   524876   527023   529372   
  500.000000  531561   533692   535730   538130   539967   
  495.000000  542341   544866   547558   549765   552097   
  490.000000  553430   555435   559084   561920   564285   
  485.000000  566642   569176   570946   574519   577145   
  480.000000  579611   582321   584703   586456   588444   
  475.000000  590139   591808   593645   594887   595768   
  470.000000  597286   598611   599417   600457   600717   
  465.000000  601002   601229   601556   602000   601229   
  460.000000  600985   599996   599475   598351   597076   
  455.000000  595759   595206   594392   593142   592093   
  450.000000  590391   588797   587497   586070   585836   
  445.000000  584401   582799   582119   582807   581952   
  440.000000  580769   581507   581390   581490   582791   
  435.000000  584124   584980   587606   589283   592043   
  430.000000  595793   599081   604274   607763   612721   
  425.000000  618425   623735   630270   636478   644329   
  420.000000  652500   659446   667272   675501   684251   
  415.000000  693621   702571   712160   722713   732687   
  410.000000  741788   751695   762122   772323   782423   
  405.000000  793043   802874   813695   823376   833501   
  400.000000  844607   854607   864690   875410   884051   
  395.000000  894385   904385   914770   924601   934382   
  390.000000  944457   954062   962987   971753   981031   
  385.000000  990242   998756   1006524  1015332  1023788  
  380.000000  1030373  1032193  1036144  1046060  1052838  
  375.000000  1058433  1065479  1071888  1077484  1083473  
  370.000000  1091174  1095569  1100309  1106508  1113018  
  365.000000  1120098  1128864  1137051  1148283  1161504  
  360.000000  1177308  1194647  1218479  1245172  1276755  
  355.000000  1315108  1360381  1415662  1479155  1555685  
  350.000000  1644025  
##END= 
##TITLE= Aquation of trans-[Co(en)2Cl2]+ (t5)
##JCAMP-DX= 4.24
##DATA TYPE= UV/VIS SPECTRUM
##BLOCK_ID=5
##ORIGIN= Dept of Chem, UWI, Mona, JAMAICA $$Exported PE IR WinLab Data File
##OWNER= R.J. Lancashire
##DATE= 96/11/06
##TIME= 19:12:48.00
##SPECTROMETER/DATA SYSTEM= PERKIN-ELMER LAMBDA 19 UV/VIS/NIR UV
##RESOLUTION= 1.000000
##DELTAX= -1.000000
##XUNITS= nanometers
##YUNITS= ABSORBANCE
##XFACTOR= 1.00
##YFACTOR= .00000011920928955078
##FIRSTX= 700.00
##LASTX= 350.00
##NPOINTS= 351
##FIRSTY= .19
##MAXY= -.009147
##MINY= .19
##XYDATA= (X++(Y..Y))
  700.000000  -76731   -73426   -69785   -66069   -62479   
  695.000000  -58670   -53704   -49887   -44863   -41088   
  690.000000  -34880   -29562   -25225   -20007   -15008   
  685.000000  -8792    -3389    1779     7709     13246    
  680.000000  20259    26936    32414    38244    45827    
  675.000000  52698    59031    65952    73644    80204    
  670.000000  87259    95094    102979   110227   117860   
  665.000000  125200   132901   141021   149594   157765   
  660.000000  166112   174819   182998   191210   199440   
  655.000000  206989   215965   224681   232197   241005   
  650.000000  248706   257942   266246   273771   282621   
  645.000000  290297   298576   306017   313684   321552   
  640.000000  328742   336920   343841   351710   359142   
  635.000000  365886   372287   379115   385683   391304   
  630.000000  397813   403610   409440   415203   420572   
  625.000000  425529   429833   434472   438574   442466   
  620.000000  446241   450133   453363   456936   459310   
  615.000000  462297   464234   467321   469528   470593   
  610.000000  472203   474057   475861   476264   476817   
  605.000000  476868   477706   477446   477421   477732   
  600.000000  476691   476230   475450   474343   474418   
  595.000000  472875   471432   469955   468269   466264   
  590.000000  464838   463085   461147   459075   457070   
  585.000000  454738   452943   450049   448304   445578   
  580.000000  442927   440696   438565   436451   433985   
  575.000000  431846   429656   428029   425831   424346   
  570.000000  421931   420840   418969   417812   417166   
  565.000000  415195   414674   413584   414641   413819   
  560.000000  413961   413727   413727   414163   414490   
  555.000000  414473   415421   416595   417359   418609   
  550.000000  419682   421561   423097   425571   426981   
  545.000000  429396   432257   434035   436988   439312   
  540.000000  442961   445813   448975   452037   455183   
  535.000000  458564   461885   465350   469234   472128   
  530.000000  475349   479611   482714   485701   488914   
  525.000000  492907   496111   500003   503267   506328   
  520.000000  509784   513098   516109   519574   522393   
  515.000000  525379   528684   532442   535328   538096   
  510.000000  541066   543800   546518   548833   550587   
  505.000000  553221   555402   557096   559705   561844   
  500.000000  563673   565929   568228   569755   571223   
  495.000000  573538   575115   576625   579108   580727   
  490.000000  582010   583210   585022   586842   588218   
  485.000000  590558   593125   594577   596816   598754   
  480.000000  600247   602688   604349   605029   605566   
  475.000000  606514   607789   608208   609282   610355   
  470.000000  610783   610095   610221   610867   610641   
  465.000000  609911   608846   608476   607034   606623   
  460.000000  606212   605155   603586   601371   599979   
  455.000000  598830   596447   595147   593889   591901   
  450.000000  590248   588134   586549   584938   582916   
  445.000000  581960   580542   579041   577632   576658   
  440.000000  575669   576222   575643   575643   576608   
  435.000000  579141   579527   581432   583411   585743   
  430.000000  588981   593478   596414   601002   606430   
  425.000000  611547   617326   623484   630270   637275   
  420.000000  645185   652030   661048   668782   679276   
  415.000000  688151   697689   708141   717562   727855   
  410.000000  737686   748071   758473   769898   779411   
  405.000000  790887   802673   813704   824122   834524   
  400.000000  845731   856595   867802   877457   889050   
  395.000000  899897   910877   921128   931505   942226   
  390.000000  952309   962585   972584   982399   991240   
  385.000000  1001508  1010735  1019879  1027563  1035767  
  380.000000  1044298  1046379  1052511  1060153  1066796  
  375.000000  1073415  1080789  1088263  1093086  1098824  
  370.000000  1104294  1108849  1113924  1121415  1127379  
  365.000000  1133159  1141715  1150204  1160824  1173231  
  360.000000  1187735  1204856  1226029  1250817  1281109  
  355.000000  1319101  1363015  1414085  1475691  1549703  
  350.000000  1635989  
##END= 
##TITLE= Aquation of trans-[Co(en)2Cl2]+ (t6)
##JCAMP-DX= 4.24
##DATA TYPE= UV/VIS SPECTRUM
##BLOCK_ID=6
##ORIGIN= Dept of Chem, UWI, Mona, JAMAICA $$Exported PE IR WinLab Data File
##OWNER= R.J. Lancashire
##DATE= 96/11/06
##TIME= 19:12:40.00
##SPECTROMETER/DATA SYSTEM= PERKIN-ELMER LAMBDA 19 UV/VIS/NIR UV
##RESOLUTION= 1.000000
##DELTAX= -1.000000
##XUNITS= nanometers
##YUNITS= ABSORBANCE
##XFACTOR= 1.00
##YFACTOR= .00000011920928955078
##FIRSTX= 700.00
##LASTX= 350.00
##NPOINTS= 351
##FIRSTY= .19
##MAXY= -.009627
##MINY= .19
##XYDATA= (X++(Y..Y))
  700.000000  -80757   -77754   -73585   -69986   -65650   
  695.000000  -61422   -57420   -53327   -49325   -44460   
  690.000000  -40425   -35165   -29679   -25066   -19235   
  685.000000  -15821   -10100   -3742    1468     8045     
  680.000000  13808    20234    26022    32213    38152    
  675.000000  44024    51188    58595    64987    71991    
  670.000000  78711    86655    94372    101167   108163   
  665.000000  115805   123908   130997   139746   147279   
  660.000000  155064   162991   170709   178988   187561   
  655.000000  195254   203844   211452   220193   227248   
  650.000000  235846   244109   251558   260777   267731   
  645.000000  276229   284013   292427   299843   306562   
  640.000000  314632   322232   329824   336484   343816   
  635.000000  350468   357565   364083   369795   376322   
  630.000000  382043   388225   394374   399055   405019   
  625.000000  410052   414632   419531   424539   428549   
  620.000000  432903   436393   440000   443070   446459   
  615.000000  449269   451727   454906   457540   458891   
  610.000000  459721   461567   464176   464436   465853   
  605.000000  466726   467799   468227   467699   468504   
  600.000000  468504   468840   467690   467590   466793   
  595.000000  466952   465358   464687   463454   461667   
  590.000000  461122   459713   459352   456768   455334   
  585.000000  453983   452868   451031   449856   448095   
  580.000000  446023   444420   443749   441635   440427   
  575.000000  438775   437122   435973   434572   434077   
  570.000000  433373   431661   430579   429950   429816   
  565.000000  429447   429044   428641   430395   429606   
  560.000000  430269   431259   431812   432341   433993   
  555.000000  434790   436317   437500   439547   441610   
  550.000000  443020   445117   448137   450569   453220   
  545.000000  455871   458715   462355   464108   468378   
  540.000000  471625   475374   478705   481951   486179   
  535.000000  489903   493435   497629   501589   505062   
  530.000000  508409   512704   516344   520522   524204   
  525.000000  528365   531335   534707   538004   541879   
  520.000000  546023   549119   552877   556291   559277   
  515.000000  562213   564814   567649   570317   573731   
  510.000000  576348   579360   581549   583982   585659   
  505.000000  587991   590114   591917   593712   595499   
  500.000000  597353   598385   599492   601296   602537   
  495.000000  604081   605515   606665   607612   608216   
  490.000000  609575   610406   612260   612998   614726   
  485.000000  615850   616756   617159   618627   620095   
  480.000000  621261   621974   623190   623282   624364   
  475.000000  624121   623635   623937   624021   624700   
  470.000000  623903   623006   622594   621965   621387   
  465.000000  619734   619046   616907   615649   614785   
  460.000000  612629   611228   608846   607310   604718   
  455.000000  602512   600457   597739   595030   593125   
  450.000000  591993   589459   586666   584510   582640   
  445.000000  581683   579032   577690   576063   574645   
  440.000000  574251   573857   573454   572607   573328   
  435.000000  574284   575308   576222   578311   580744   
  430.000000  585114   587941   590978   596254   601329   
  425.000000  606925   612276   617704   625187   631797   
  420.000000  640009   647207   656233   665267   675074   
  415.000000  684125   693940   702982   713384   724566   
  410.000000  735832   745613   756401   767600   779612   
  405.000000  791700   802656   812999   825423   836487   
  400.000000  847871   860688   871459   882490   894318   
  395.000000  906004   916917   928795   938853   950723   
  390.000000  961167   972710   982407   992608   1002867  
  385.000000  1012916  1021959  1032143  1040062  1049868  
  380.000000  1057133  1060698  1065161  1076578  1083205  
  375.000000  1089144  1096970  1103757  1108110  1114511  
  370.000000  1119192  1124896  1129073  1135231  1141371  
  365.000000  1146639  1154030  1163056  1171956  1183390  
  360.000000  1196962  1213354  1233856  1258468  1287199  
  355.000000  1321684  1362218  1412835  1471564  1542858  
  350.000000  1625385  
##END= 
##TITLE= Aquation of trans-[Co(en)2Cl2]+ (t7)
##JCAMP-DX= 4.24
##DATA TYPE= UV/VIS SPECTRUM
##BLOCK_ID=7
##ORIGIN= Dept of Chem, UWI, Mona, JAMAICA $$Exported PE IR WinLab Data File
##OWNER= R.J. Lancashire
##DATE= 96/11/06
##TIME= 19:12:31.00
##SPECTROMETER/DATA SYSTEM= PERKIN-ELMER LAMBDA 19 UV/VIS/NIR UV
##RESOLUTION= 1.000000
##DELTAX= -1.000000
##XUNITS= nanometers
##YUNITS= ABSORBANCE
##XFACTOR= 1.00
##YFACTOR= .00000011920928955078
##FIRSTX= 700.00
##LASTX= 350.00
##NPOINTS= 351
##FIRSTY= .19
##MAXY= -.010012
##MINY= .19
##XYDATA= (X++(Y..Y))
  700.000000  -83987   -79742   -76748   -73174   -70288   
  695.000000  -65960   -61162   -57613   -52773   -48973   
  690.000000  -43411   -39209   -34519   -29688   -24562   
  685.000000  -19621   -14219   -9547    -3716    1779     
  680.000000  8179     13187    18464    24973    31885    
  675.000000  37741    44015    50030    56942    64131    
  670.000000  70515    77754    85287    91705    98155    
  665.000000  105772   112609   120310   128161   136265   
  660.000000  143546   151431   160063   167689   174827   
  655.000000  183040   190590   198894   206427   214480   
  650.000000  222282   230352   238052   246089   254595   
  645.000000  261909   269535   277948   284022   292276   
  640.000000  300187   307938   314540   322190   328465   
  635.000000  335478   341920   348371   354394   360694   
  630.000000  366742   372723   378192   383796   389441   
  625.000000  393955   399265   404776   408945   413064   
  620.000000  417166   421318   425118   429136   431661   
  615.000000  435436   438263   440595   443254   446157   
  610.000000  447633   449630   452222   452549   453900   
  605.000000  455300   456617   457381   457725   458178   
  600.000000  459025   459830   459704   459897   460116   
  595.000000  459939   458966   459361   458857   458044   
  590.000000  457557   457045   456072   455242   454243   
  585.000000  453572   452364   451408   450267   449437   
  580.000000  448908   447172   446148   445142   444580   
  575.000000  443632   442223   441518   441560   441392   
  570.000000  439857   440285   439832   440109   440310   
  565.000000  440948   441099   441166   443036   443330   
  560.000000  444446   446039   447424   449001   450544   
  555.000000  452490   454579   456206   458647   460980   
  550.000000  464083   466659   469066   472740   475215   
  545.000000  479124   482865   486573   490407   493779   
  540.000000  498259   502243   505817   509852   514222   
  535.000000  518525   522846   527392   531368   535688   
  530.000000  540042   543406   548431   552633   556970   
  525.000000  560536   565015   568689   572649   576608   
  520.000000  580266   583831   587329   590869   594358   
  515.000000  597303   600407   603947   607134   609030   
  510.000000  612335   614281   616563   619013   621093   
  505.000000  623526   624532   626755   628047   629482   
  500.000000  630941   632619   632820   633584   634984   
  495.000000  635135   636176   637535   637451   637988   
  490.000000  638977   638491   639892   639808   639380   
  485.000000  640060   640655   641075   642064   642299   
  480.000000  642459   642442   642358   641737   640974   
  475.000000  640328   640445   639154   638608   637316   
  470.000000  635949   634674   633365   632174   630404   
  465.000000  628366   626529   624574   623458   619826   
  460.000000  618249   614919   612469   610624   606790   
  455.000000  604878   601707   599039   595977   592706   
  450.000000  590164   587211   585315   583093   580358   
  445.000000  578680   575367   573798   572330   570300   
  440.000000  569058   567867   567272   567263   566752   
  435.000000  567322   568043   569469   571499   573462   
  430.000000  576164   579292   583806   588142   592236   
  425.000000  598007   602848   608871   615833   623752   
  420.000000  631461   638961   647433   656988   666299   
  415.000000  675711   686323   695944   706195   717117   
  410.000000  728618   739389   751502   763624   774361   
  405.000000  786432   798294   810256   823099   835061   
  400.000000  847510   858960   871703   882843   894645   
  395.000000  908369   919190   931262   943031   953802   
  390.000000  966855   977357   988120   999646   1010333  
  385.000000  1020005  1030960  1040666  1049986  1059607  
  380.000000  1067996  1071377  1076544  1087684  1095737  
  375.000000  1101408  1107330  1114310  1118915  1126364  
  370.000000  1131305  1135868  1140255  1147000  1150943  
  365.000000  1158576  1163752  1171813  1180026  1191275  
  360.000000  1203833  1219612  1237672  1261270  1288121  
  355.000000  1321986  1361211  1408540  1464534  1533186  
  350.000000  1612568  
##END= 
##TITLE= Aquation of trans-[Co(en)2Cl2]+ (t8)
##JCAMP-DX= 4.24
##DATA TYPE= UV/VIS SPECTRUM
##BLOCK_ID=8
##ORIGIN= Dept of Chem, UWI, Mona, JAMAICA $$Exported PE IR WinLab Data File
##OWNER= R.J. Lancashire
##DATE= 96/11/06
##TIME= 19:04:04.00
##SPECTROMETER/DATA SYSTEM= PERKIN-ELMER LAMBDA 19 UV/VIS/NIR UV
##RESOLUTION= 1.000000
##DELTAX= -1.000000
##XUNITS= nanometers
##YUNITS= ABSORBANCE
##XFACTOR= 1.00
##YFACTOR= .00000011920928955078
##FIRSTX= 700.00
##LASTX= 350.00
##NPOINTS= 351
##FIRSTY= .19
##MAXY= -.010415
##MINY= .19
##XYDATA= (X++(Y..Y))
  700.000000  -87368   -82729   -79533   -76647   -72847   
  695.000000  -69156   -65733   -61657   -56540   -52949   
  690.000000  -48075   -44426   -39880   -35123   -30459   
  685.000000  -25426   -20527   -14756   -9052    -4488    
  680.000000  1141     7122     13271    18472    24319    
  675.000000  30115    36390    43269    49527    55617    
  670.000000  62084    69232    76622    83542    90539    
  665.000000  96604    104522   110864   118716   126241   
  660.000000  133966   141298   148252   156297   163905   
  655.000000  172185   179768   187897   193777   201906   
  650.000000  209732   218096   225830   233657   240577   
  645.000000  247884   256021   263260   270667   277814   
  640.000000  285154   292176   299868   306671   313072   
  635.000000  319933   326376   332709   338506   345250   
  630.000000  351953   357649   362766   368143   374157   
  625.000000  379325   384022   388536   393585   398736   
  620.000000  402352   406462   410698   415060   418198   
  615.000000  421209   424497   428742   431292   432869   
  610.000000  435579   437785   439496   441291   443338   
  605.000000  445385   446249   447935   448338   449907   
  600.000000  451274   451828   452448   453002   453572   
  595.000000  454495   454973   454722   454948   454772   
  590.000000  454504   453715   453807   453539   453136   
  585.000000  452608   452322   452113   451987   450947   
  580.000000  450938   451257   449965   449663   449848   
  575.000000  449949   449672   449059   449328   449017   
  570.000000  449328   449957   450712   451257   451786   
  565.000000  452289   453774   454973   456743   459117   
  560.000000  460669   461978   464134   466130   468580   
  555.000000  470744   473512   476608   479384   482102   
  550.000000  485759   489593   492286   495641   499886   
  545.000000  504214   507922   511814   516529   521025   
  540.000000  525001   529238   533851   539061   543364   
  535.000000  547852   552969   557876   562423   566986   
  530.000000  571734   576340   580920   586314   590198   
  525.000000  593905   598293   602772   607252   610934   
  520.000000  614382   618711   622938   625933   629574   
  515.000000  632703   636075   639028   641477   644514   
  510.000000  648012   649824   652013   654236   656719   
  505.000000  658296   658598   660888   662583   662768   
  500.000000  664168   665066   665955   665636   666970   
  495.000000  667440   666953   667666   667650   667356   
  490.000000  666760   667650   666987   666970   666895   
  485.000000  666735   666526   666014   665603   665745   
  480.000000  664445   664420   662877   662088   661149   
  475.000000  659865   657407   656954   655520   653104   
  470.000000  650738   649195   647609   644346   641871   
  465.000000  639665   637216   633986   630346   628324   
  460.000000  624843   621487   617570   614827   611102   
  455.000000  608233   603972   601766   597487   593964   
  450.000000  591045   588075   584468   580677   578361   
  445.000000  576046   573915   571105   568597   566391   
  440.000000  565233   563782   562339   561920   562205   
  435.000000  562515   563102   563807   565736   568421   
  430.000000  570023   573043   576717   581222   585492   
  425.000000  590676   596372   603594   608778   615993   
  420.000000  624633   632703   641326   649723   660427   
  415.000000  669051   679671   690911   701699   713250   
  410.000000  724273   736235   748096   760428   771878   
  405.000000  784293   796272   809358   822118   835405   
  400.000000  847560   860068   873053   887029   898521   
  395.000000  911658   924559   936865   948693   961075   
  390.000000  973490   986132   997003   1009150  1020458  
  385.000000  1031329  1041689  1051907  1062510  1071595  
  380.000000  1080663  1083339  1090251  1099512  1107171  
  375.000000  1115408  1120945  1129308  1134258  1140557  
  370.000000  1145851  1150355  1156202  1160237  1165019  
  365.000000  1169658  1177459  1183465  1191577  1202197  
  360.000000  1213866  1228076  1246455  1267066  1293004  
  355.000000  1326105  1362998  1408263  1462697  1527440  
  350.000000  1603969  
##END= 
##TITLE= Aquation of trans-[Co(en)2Cl2]+ (t9)
##JCAMP-DX= 4.24
##DATA TYPE= UV/VIS SPECTRUM
##BLOCK_ID=9
##ORIGIN= Dept of Chem, UWI, Mona, JAMAICA $$Exported PE IR WinLab Data File
##OWNER= R.J. Lancashire
##DATE= 96/11/06
##TIME= 19:04:18.00
##SPECTROMETER/DATA SYSTEM= PERKIN-ELMER LAMBDA 19 UV/VIS/NIR UV
##RESOLUTION= 1.000000
##DELTAX= -1.000000
##XUNITS= nanometers
##YUNITS= ABSORBANCE
##XFACTOR= 1.00
##YFACTOR= .00000011920928955078
##FIRSTX= 700.00
##LASTX= 350.00
##NPOINTS= 351
##FIRSTY= .19
##MAXY= -.010678
##MINY= .19
##XYDATA= (X++(Y..Y))
  700.000000  -89574   -86520   -82158   -78945   -75331   
  695.000000  -72847   -68594   -64131   -60415   -56514   
  690.000000  -52194   -47354   -43411   -39024   -34427   
  685.000000  -29411   -24277   -19261   -14806   -10042   
  680.000000  -4421    1015     6552     11988    18271    
  675.000000  24076    30988    37078    43747    48990    
  670.000000  54568    61480    68242    75548    82452    
  665.000000  89649    95891    102878   109933   116870   
  660.000000  124764   132196   139327   146373   153780   
  655.000000  160634   168930   176513   183786   191479   
  650.000000  198206   206687   214162   221929   228867   
  645.000000  235896   243060   251063   258462   265265   
  640.000000  271875   278670   286606   293132   300371   
  635.000000  306218   312610   319179   325705   331577   
  630.000000  338162   343875   349772   356130   360442   
  625.000000  366541   370970   376255   381338   385616   
  620.000000  389869   394441   398401   402083   407074   
  615.000000  409918   412955   416176   419607   422140   
  610.000000  425479   427551   430235   432039   434245   
  605.000000  436074   438389   440427   441510   442793   
  600.000000  444177   445578   446207   446962   448296   
  595.000000  449680   449403   450200   451173   451844   
  590.000000  452364   452272   452390   453245   453606   
  585.000000  453623   453816   454025   454185   454403   
  580.000000  454587   454403   454495   455007   456148   
  575.000000  455888   455661   457028   458144   458606   
  570.000000  458949   460761   460912   462464   464176   
  565.000000  465316   466961   468622   471616   473470   
  560.000000  475660   478436   481129   483620   486573   
  555.000000  490214   492596   496052   499592   502486   
  550.000000  507201   511127   514994   519616   522904   
  545.000000  527468   532895   537249   541770   547491   
  540.000000  552508   556727   562717   567666   572330   
  535.000000  578085   583235   587991   593260   598393   
  530.000000  603301   608258   613115   618149   622720   
  525.000000  627779   632141   636385   642308   645604   
  520.000000  649488   654245   657911   661123   665267   
  515.000000  668480   671911   674562   677313   680275   
  510.000000  682665   685232   687002   689519   690718   
  505.000000  692698   694443   695148   696330   697119   
  500.000000  697513   698050   698855   698696   698251   
  495.000000  698679   697673   697421   697547   696515   
  490.000000  695399   694619   693512   694124   692581   
  485.000000  691482   690584   689401   688898   687782   
  480.000000  685861   684670   683471   681348   679117   
  475.000000  677011   675275   673186   670208   667230   
  470.000000  664504   660670   658036   655570   652324   
  465.000000  648884   645277   641561   638122   634783   
  460.000000  630513   626839   622527   618803   614860   
  455.000000  609919   606472   602554   597974   594249   
  450.000000  590600   586255   583529   579846   576348   
  445.000000  573295   570141   567624   564352   561702   
  440.000000  560678   559705   557532   556845   556794   
  435.000000  555863   557063   557155   558849   560385   
  430.000000  561953   566525   569184   573697   578881   
  425.000000  582933   588847   594946   601212   608862   
  420.000000  617838   625598   633709   643440   652735   
  415.000000  663380   673513   684066   694745   707403   
  410.000000  718283   730329   742971   755176   768514   
  405.000000  781450   793915   806901   820431   834088   
  400.000000  846621   860093   874672   887767   900291   
  395.000000  914124   927319   940791   953642   965923   
  390.000000  979018   991886   1004100  1016012  1028041  
  385.000000  1039693  1050095  1061168  1071603  1081250  
  380.000000  1091576  1095049  1100812  1110283  1118286  
  375.000000  1127186  1134182  1140591  1147453  1151958  
  370.000000  1158367  1162150  1167938  1172485  1177585  
  365.000000  1181771  1188264  1194647  1201920  1211215  
  360.000000  1221726  1236154  1252512  1272460  1298112  
  355.000000  1326558  1362134  1405470  1457001  1519966  
  350.000000  1594146  
##END= 
##TITLE= Aquation of trans-[Co(en)2Cl2]+ (t10)
##JCAMP-DX= 4.24
##DATA TYPE= UV/VIS SPECTRUM
##BLOCK_ID=10
##ORIGIN= Dept of Chem, UWI, Mona, JAMAICA $$Exported PE IR WinLab Data File
##OWNER= R.J. Lancashire
##DATE= 96/11/06
##TIME= 19:04:26.00
##SPECTROMETER/DATA SYSTEM= PERKIN-ELMER LAMBDA 19 UV/VIS/NIR UV
##RESOLUTION= 1.000000
##DELTAX= -1.000000
##XUNITS= nanometers
##YUNITS= ABSORBANCE
##XFACTOR= 1.00
##YFACTOR= .00000011920928955078
##FIRSTX= 700.00
##LASTX= 350.00
##NPOINTS= 351
##FIRSTY= .18
##MAXY= -.011067
##MINY= .18
##XYDATA= (X++(Y..Y))
  700.000000  -92837   -89633   -87250   -83542   -80247   
  695.000000  -76706   -73594   -68258   -65541   -61254   
  690.000000  -57924   -53620   -49300   -44317   -40517   
  685.000000  -35232   -30594   -25116   -21391   -16811   
  680.000000  -10973   -5705    193      4664     11610    
  675.000000  16283    22297    27934    35132    40022    
  670.000000  46733    52370    59710    66145    73141    
  665.000000  79843    86269    92913    98936    106250   
  660.000000  113481   120444   127784   134545   141650   
  655.000000  148932   155928   163905   171489   178090   
  650.000000  185380   193190   200111   206880   215613   
  645.000000  222097   228909   236584   243706   250409   
  640.000000  257254   264434   271204   277747   284458   
  635.000000  290926   298006   304230   309490   316301   
  630.000000  322626   328783   333867   339756   345368   
  625.000000  350166   355115   361407   365735   370383   
  620.000000  374367   379308   383997   387286   391253   
  615.000000  395473   398837   402083   405229   408903   
  610.000000  411696   414507   417686   419750   422518   
  605.000000  424011   426653   428843   430210   432861   
  600.000000  434052   435612   437449   439119   439974   
  595.000000  441963   442860   443254   444873   446325   
  590.000000  446694   447625   449588   449479   449512   
  585.000000  451282   451719   452457   453497   454344   
  580.000000  454655   455200   457146   457481   457934   
  575.000000  458824   460870   461701   463463   465358   
  570.000000  466130   467900   469569   471549   473546   
  565.000000  475660   478017   480189   483612   486556   
  560.000000  489207   492244   495205   499164   502847   
  555.000000  506203   509457   513752   518290   521696   
  550.000000  526243   530999   536242   541141   545402   
  545.000000  550637   555536   560762   566122   570862   
  540.000000  577371   582690   588059   594082   599165   
  535.000000  605557   611161   616781   621907   627980   
  530.000000  633273   638684   644069   648943   654278   
  525.000000  659009   664001   668908   673849   677632   
  520.000000  682162   686541   690593   694359   698604   
  515.000000  701984   704920   708443   710759   713846   
  510.000000  716547   718627   720641   722989   724030   
  505.000000  725430   726974   727611   727997   729734   
  500.000000  729222   729549   729356   728492   728543   
  495.000000  727947   727326   725883   725070   724080   
  490.000000  722763   721681   720775   719122   716564   
  485.000000  715305   714081   712009   710650   708578   
  480.000000  706724   704694   702773   699258   696397   
  475.000000  694334   690869   687942   684930   680786   
  470.000000  677481   674637   670519   666157   662583   
  465.000000  658523   654194   650252   645789   641687   
  460.000000  636897   632443   628399   622771   618383   
  455.000000  614441   609491   604299   601002   595877   
  450.000000  591406   587480   583051   579418   575828   
  445.000000  571676   568077   564948   561131   559042   
  440.000000  557314   554747   553103   551040   551207   
  435.000000  550494   551971   552071   553363   554856   
  430.000000  556677   560292   564025   566768   572162   
  425.000000  576474   581566   589032   594979   602755   
  420.000000  610397   618199   628265   637006   646745   
  415.000000  657382   667885   677699   690794   701942   
  410.000000  713401   726705   739314   751704   765243   
  405.000000  778329   792011   805684   819777   833836   
  400.000000  846705   861729   875142   889142   903881   
  395.000000  917286   930649   944306   958307   972173   
  390.000000  985939   998052   1011734  1025415  1036111  
  385.000000  1048610  1060035  1072408  1080998  1092231  
  380.000000  1103404  1107339  1112716  1123923  1130961  
  375.000000  1140901  1147554  1153543  1159054  1166420  
  370.000000  1171998  1176419  1179330  1184849  1190126  
  365.000000  1194429  1201216  1206156  1211869  1222028  
  360.000000  1232211  1244207  1258686  1278718  1301938  
  355.000000  1331272  1363963  1404128  1455055  1514455  
  350.000000  1585464  
##END= 
##TITLE= Aquation of trans-[Co(en)2Cl2]+ (t11)
##JCAMP-DX= 4.24
##DATA TYPE= UV/VIS SPECTRUM
##BLOCK_ID=11
##ORIGIN= Dept of Chem, UWI, Mona, JAMAICA $$Exported PE IR WinLab Data File
##OWNER= R.J. Lancashire
##DATE= 96/11/06
##TIME= 19:04:36.00
##SPECTROMETER/DATA SYSTEM= PERKIN-ELMER LAMBDA 19 UV/VIS/NIR UV
##RESOLUTION= 1.000000
##DELTAX= -1.000000
##XUNITS= nanometers
##YUNITS= ABSORBANCE
##XFACTOR= 1.00
##YFACTOR= .00000011920928955078
##FIRSTX= 700.00
##LASTX= 350.00
##NPOINTS= 351
##FIRSTY= .18
##MAXY= -.011167
##MINY= .18
##XYDATA= (X++(Y..Y))
  700.000000  -93676   -91453   -87628   -84959   -80951   
  695.000000  -78333   -74516   -71018   -67218   -63536   
  690.000000  -59039   -55357   -51137   -47237   -43344   
  685.000000  -38420   -33622   -28622   -24571   -20804   
  680.000000  -14974   -10318   -4975    772      5361     
  675.000000  11149    16610    22599    26953    33764    
  670.000000  39821    44544    51943    57454    64081    
  665.000000  70515    77016    83039    89591    96889    
  660.000000  103885   109841   117516   124538   131349   
  655.000000  138278   145954   152010   159409   166506   
  650.000000  174089   181043   188492   194834   202392   
  645.000000  208944   216418   222575   230838   237188   
  640.000000  243991   251239   257975   264183   271028   
  635.000000  277797   283644   290481   296294   301890   
  630.000000  307720   314020   318692   324648   330486   
  625.000000  336358   341173   346022   350854   356357   
  620.000000  360375   365383   369309   374082   377806   
  615.000000  381984   386212   389391   392872   395876   
  610.000000  398879   402159   405631   408366   411000   
  605.000000  413550   416159   418240   420991   422602   
  600.000000  424791   426511   428465   430588   432584   
  595.000000  434950   436049   437542   438808   440830   
  590.000000  442130   442743   445058   446308   446820   
  585.000000  447843   450427   451324   453245   453799   
  580.000000  455284   456433   458203   459176   460719   
  575.000000  462733   464880   466281   467707   470433   
  570.000000  472505   474829   476784   479804   482077   
  565.000000  484124   487353   490885   494870   499114   
  560.000000  501664   505196   509239   513643   517712   
  555.000000  522384   526528   531343   535386   540386   
  550.000000  545780   551157   555888   561651   567037   
  545.000000  572791   578663   583680   589745   595457   
  540.000000  601757   607789   613988   619809   625824   
  535.000000  631914   638181   643935   650336   656409   
  530.000000  661862   668321   673824   679318   684075   
  525.000000  689888   694736   700483   704660   709643   
  520.000000  714181   718174   722788   727016   730178   
  515.000000  734683   737963   740572   744053   746645   
  510.000000  749363   751754   753658   755168   757500   
  505.000000  758372   759027   759832   760788   760444   
  500.000000  760763   760520   760092   759195   758834   
  495.000000  757735   756712   755344   753901   751628   
  490.000000  749741   748390   747132   744397   742585   
  485.000000  739616   737963   735530   733408   730665   
  480.000000  728308   725036   722117   718678   715398   
  475.000000  711757   707336   703654   700248   696104   
  470.000000  691700   686432   682900   677347   673136   
  465.000000  668052   663187   657810   652986   647802   
  460.000000  642098   637417   632174   626864   622175   
  455.000000  617008   611127   606061   600524   595935   
  450.000000  591045   586280   580911   576885   572800   
  445.000000  569654   565669   561567   557465   556383   
  440.000000  551820   550067   548229   547114   545637   
  435.000000  544924   544983   545512   546644   548892   
  430.000000  550419   553137   556283   560343   564285   
  425.000000  569788   574813   581130   588117   594912   
  420.000000  603225   612302   620741   630639   639883   
  415.000000  651384   661761   673538   684603   696716   
  410.000000  709643   721932   735446   748390   762022   
  405.000000  775712   790300   804241   817957   832914   
  400.000000  846830   860999   876627   890862   905651   
  395.000000  919954   934349   949104   963835   977365   
  390.000000  991953   1005451  1019543  1031690  1045489  
  385.000000  1057997  1070269  1081510  1093086  1102633  
  380.000000  1113999  1118303  1126968  1134694  1142671  
  375.000000  1152864  1158559  1167309  1172938  1178927  
  370.000000  1183876  1187970  1192105  1196526  1201794  
  365.000000  1205703  1210930  1217640  1222388  1230643  
  360.000000  1240877  1252596  1266462  1284254  1305629  
  355.000000  1331818  1365439  1404698  1451817  1508423  
  350.000000  1576614  
##END= 
##TITLE= Aquation of trans-[Co(en)2Cl2]+ (t12)
##JCAMP-DX= 4.24
##DATA TYPE= UV/VIS SPECTRUM
##BLOCK_ID=12
##ORIGIN= Dept of Chem, UWI, Mona, JAMAICA $$Exported PE IR WinLab Data File
##OWNER= R.J. Lancashire
##DATE= 96/11/06
##TIME= 19:04:45.00
##SPECTROMETER/DATA SYSTEM= PERKIN-ELMER LAMBDA 19 UV/VIS/NIR UV
##RESOLUTION= 1.000000
##DELTAX= -1.000000
##XUNITS= nanometers
##YUNITS= ABSORBANCE
##XFACTOR= 1.00
##YFACTOR= .00000011920928955078
##FIRSTX= 700.00
##LASTX= 350.00
##NPOINTS= 351
##FIRSTY= .18
##MAXY= -.011606
##MINY= .18
##XYDATA= (X++(Y..Y))
  700.000000  -97359   -94515   -90446   -87325   -84735   
  695.000000  -81496   -78224   -74567   -70725   -66883   
  690.000000  -62772   -59098   -55231   -51406   -47086   
  685.000000  -43302   -39527   -34285   -29369   -26013   
  680.000000  -20578   -15259   -10721   -5965    -1183    
  675.000000  4832     10369    16182    22138    28127    
  670.000000  33421    39267    44787    51699    57169    
  665.000000  63116    70112    75875    81890    88894    
  660.000000  94582    101561   107660   115084   121568   
  655.000000  128673   135191   142649   148974   156272   
  650.000000  163125   170348   177252   183853   191043   
  645.000000  198307   204951   212215   218415   224614   
  640.000000  231559   237851   245904   251793   257757   
  635.000000  264711   270483   276757   284030   289944   
  630.000000  296101   301562   306537   312535   317895   
  625.000000  324228   329111   334253   339580   343606   
  620.000000  348631   352792   358135   361734   366046   
  615.000000  370659   374510   378041   381497   385675   
  610.000000  389735   392436   395725   398191   401764   
  605.000000  404331   407158   410312   412451   414557   
  600.000000  417216   419431   422560   424732   427333   
  595.000000  429212   430495   432953   435461   437106   
  590.000000  439513   440285   442290   444395   446652   
  585.000000  448338   449470   450980   453262   455594   
  580.000000  457163   458773   460652   463354   465308   
  575.000000  466885   469251   471818   474410   477304   
  570.000000  480626   482429   485139   488637   492168   
  565.000000  495415   498930   502050   506882   510741   
  560.000000  514482   519020   523986   528701   532576   
  555.000000  537593   542592   548229   553648   559084   
  550.000000  564084   570250   574989   581524   587765   
  545.000000  593528   599727   605146   612746   619247   
  540.000000  625346   632090   639170   645361   652475   
  535.000000  659110   664856   671492   678412   684779   
  530.000000  691582   696934   703838   709752   715305   
  525.000000  720590   725883   731672   737250   741578   
  520.000000  746201   751334   755780   759991   763355   
  515.000000  767491   771392   775024   777675   779940   
  510.000000  783077   785317   786659   788303   789880   
  505.000000  791356   791298   792061   792724   792875   
  500.000000  792346   792011   791197   790761   789259   
  495.000000  787791   786281   784553   782918   780158   
  490.000000  777649   776601   773355   770611   767877   
  485.000000  764429   760772   758884   756552   752760   
  480.000000  748566   745983   741721   737711   733601   
  475.000000  729675   725086   719533   715339   711010   
  470.000000  705507   700558   694904   689452   684049   
  465.000000  678840   672985   667180   661912   656367   
  460.000000  649715   643700   638499   632661   625648   
  455.000000  620271   614474   609500   602940   598024   
  450.000000  592647   588151   582304   576658   572825   
  445.000000  568261   564025   559470   557037   552180   
  440.000000  549630   548238   545218   542483   541787   
  435.000000  541837   540202   540982   542827   543339   
  430.000000  545243   547667   550964   554731   559017   
  425.000000  563950   569520   575434   581583   589124   
  420.000000  597496   606245   615372   625354   634389   
  415.000000  644984   656820   667281   680182   692094   
  410.000000  705013   718292   731990   745186   759480   
  405.000000  773338   788546   801616   816975   831521   
  400.000000  846755   861485   877935   892984   907941   
  395.000000  922705   937704   953483   967912   982717   
  390.000000  997087   1011365  1026154  1039307  1052225  
  385.000000  1065563  1078842  1090410  1101173  1112238  
  380.000000  1124946  1129661  1135306  1146790  1155640  
  375.000000  1163886  1171537  1178684  1183323  1190554  
  370.000000  1195662  1199781  1203992  1209176  1213077  
  365.000000  1216743  1221138  1225979  1232237  1239736  
  360.000000  1247705  1258669  1272485  1288449  1308330  
  355.000000  1334594  1365372  1403037  1448956  1504279  
  350.000000  1568259  
##END= 
##TITLE= Aquation of trans-[Co(en)2Cl2]+ (t13)
##JCAMP-DX= 4.24
##DATA TYPE= UV/VIS SPECTRUM
##BLOCK_ID=13
##ORIGIN= Dept of Chem, UWI, Mona, JAMAICA $$Exported PE IR WinLab Data File
##OWNER= R.J. Lancashire
##DATE= 96/11/06
##TIME= 19:04:53.00
##SPECTROMETER/DATA SYSTEM= PERKIN-ELMER LAMBDA 19 UV/VIS/NIR UV
##RESOLUTION= 1.000000
##DELTAX= -1.000000
##XUNITS= nanometers
##YUNITS= ABSORBANCE
##XFACTOR= 1.00
##YFACTOR= .00000011920928955078
##FIRSTX= 700.00
##LASTX= 350.00
##NPOINTS= 351
##FIRSTY= .18
##MAXY= -.011913
##MINY= .18
##XYDATA= (X++(Y..Y))
  700.000000  -99934   -96553   -93030   -90823   -87711   
  695.000000  -84341   -80573   -77889   -75104   -70515   
  690.000000  -66119   -63443   -58721   -55332   -51322   
  685.000000  -46280   -42765   -38563   -33899   -29839   
  680.000000  -26181   -19881   -14966   -11057   -4773    
  675.000000  -478     5646     10117    16023    21375    
  670.000000  26609    32984    37841    43629    50114    
  665.000000  56288    62495    68628    73828    80195    
  660.000000  87661    93668    100597   106066   113783   
  655.000000  120108   126215   133773   140367   146658   
  650.000000  153411   160693   167051   173494   180850   
  645.000000  186924   193517   200866   207887   213616   
  640.000000  220763   226988   233497   240275   246827   
  635.000000  253059   259301   265919   272001   278108   
  630.000000  283015   289340   295363   300497   306336   
  625.000000  312132   316368   321938   326737   331476   
  620.000000  336409   341568   345812   350980   355250   
  615.000000  359377   363252   367874   371146   374560   
  610.000000  378847   382454   385272   389685   393275   
  605.000000  395683   398753   401982   404717   407502   
  600.000000  409968   412426   416470   418458   420714   
  595.000000  423961   425965   428818   432282   434002   
  590.000000  436023   438892   440612   443254   444437   
  585.000000  446652   449739   452230   453941   457146   
  580.000000  459235   461676   463773   466650   468387   
  575.000000  472338   474494   476951   480902   484191   
  570.000000  486489   490759   493611   497327   501295   
  565.000000  504793   508551   513694   518500   522644   
  560.000000  527812   532409   537601   542911   547927   
  555.000000  553237   559294   564478   570124   576801   
  550.000000  582774   588386   595382   601329   607780   
  545.000000  614575   621328   628215   635035   642509   
  540.000000  649178   656292   662658   669587   677439   
  535.000000  684494   691280   698184   705449   711338   
  530.000000  718082   725271   731378   738542   743751   
  525.000000  749665   756737   761703   767021   772306   
  520.000000  776920   781944   787062   790954   794779   
  515.000000  799309   802052   805852   809308   811229   
  510.000000  814140   816782   818049   819995   821673   
  505.000000  822185   823393   823560   823728   823888   
  500.000000  823166   822780   821522   820473   818208   
  495.000000  816816   814912   811841   810055   807320   
  490.000000  804300   801800   798923   794997   792170   
  485.000000  788957   784654   781659   777951   774638   
  480.000000  770209   765780   761157   755780   751704   
  475.000000  746276   740622   736034   729960   725003   
  470.000000  718988   712730   707529   700902   694502   
  465.000000  689234   682825   676181   670124   664009   
  460.000000  657088   650201   644396   636771   631117   
  455.000000  624255   617570   612042   605314   598947   
  450.000000  593612   588142   581297   577237   572540   
  445.000000  567649   562708   558489   554378   550822   
  440.000000  547567   544262   541821   539044   538012   
  435.000000  536385   535915   536561   536309   537819   
  430.000000  539832   542123   545763   548649   552516   
  425.000000  557398   562473   569293   576122   582547   
  420.000000  590827   599635   608770   618400   628357   
  415.000000  639397   650453   661870   675258   686356   
  410.000000  700416   713863   727813   741771   755604   
  405.000000  770804   786105   800836   815834   831462   
  400.000000  847158   862156   878028   893622   909384   
  395.000000  924509   941873   955538   971225   986618   
  390.000000  1001919  1017010  1032563  1047159  1058961  
  385.000000  1073113  1086711  1098631  1111038  1123269  
  380.000000  1134140  1137865  1145331  1158945  1166151  
  375.000000  1174758  1183524  1189664  1196770  1203506  
  370.000000  1205947  1210443  1217179  1220199  1224754  
  365.000000  1229829  1231171  1236985  1241951  1248024  
  360.000000  1256832  1267116  1279162  1294447  1314026  
  355.000000  1338151  1365498  1402198  1445509  1497996  
  350.000000  1560281  
##END= 
##TITLE= Aquation of trans-[Co(en)2Cl2]+ (t14)
##JCAMP-DX= 4.24
##DATA TYPE= UV/VIS SPECTRUM
##BLOCK_ID=14
##ORIGIN= Dept of Chem, UWI, Mona, JAMAICA $$Exported PE IR WinLab Data File
##OWNER= R.J. Lancashire
##DATE= 96/11/06
##TIME= 19:05:01.00
##SPECTROMETER/DATA SYSTEM= PERKIN-ELMER LAMBDA 19 UV/VIS/NIR UV
##RESOLUTION= 1.000000
##DELTAX= -1.000000
##XUNITS= nanometers
##YUNITS= ABSORBANCE
##XFACTOR= 1.00
##YFACTOR= .00000011920928955078
##FIRSTX= 700.00
##LASTX= 350.00
##NPOINTS= 351
##FIRSTY= .18
##MAXY= -.012180
##MINY= .18
##XYDATA= (X++(Y..Y))
  700.000000  -102174  -98457   -96092   -92685   -90169   
  695.000000  -86461   -83667   -80996   -77402   -73501   
  690.000000  -69986   -66279   -62395   -58905   -54241   
  685.000000  -50835   -46339   -42715   -39494   -34595   
  680.000000  -29100   -24982   -20418   -15729   -10234   
  675.000000  -5319    -789     4052     9538     14034    
  670.000000  19730    26106    31751    36508    42698    
  665.000000  49107    54275    60793    66052    72872    
  660.000000  78233    84910    91226    97241    103692   
  655.000000  110285   117005   123405   129722   135661   
  650.000000  142523   150324   156398   162605   169232   
  645.000000  174626   182067   188811   195363   201629   
  640.000000  208155   214564   221728   227885   234370   
  635.000000  239940   246198   252103   258218   264996   
  630.000000  270927   276841   282168   287075   293350   
  625.000000  298517   304398   309976   314531   318734   
  620.000000  324874   329027   334244   338984   343170   
  615.000000  347322   351575   355711   361004   365005   
  610.000000  368202   371221   375869   379753   383192   
  605.000000  386522   389660   392940   396379   399625   
  600.000000  402544   405782   408358   411713   415169   
  595.000000  417736   420186   423021   426628   429615   
  590.000000  431930   434966   437626   439941   443263   
  585.000000  446350   448564   451324   453900   457406   
  580.000000  460308   463312   466382   469452   472413   
  575.000000  475299   479250   482303   485726   489610   
  570.000000  493209   497780   501832   505791   509071   
  565.000000  514155   518769   524565   529489   534313   
  560.000000  540093   544748   550629   556291   562415   
  555.000000  568102   574133   580517   586775   593008   
  550.000000  599417   606455   613375   620564   627695   
  545.000000  634892   642148   649480   656963   663774   
  540.000000  671433   679100   686365   693478   701347   
  535.000000  709022   716169   723535   731252   737627   
  530.000000  744900   752022   759119   765780   772340   
  525.000000  778404   784696   790090   795752   800903   
  520.000000  807052   811800   816908   821505   825507   
  515.000000  829718   832989   836269   839356   842678   
  510.000000  845530   847938   849825   851494   852124   
  505.000000  853675   853415   853902   854070   853885   
  500.000000  853315   851914   850999   849045   847267   
  495.000000  845010   842460   839515   837653   834768   
  490.000000  831194   827637   824408   820951   816271   
  485.000000  812605   808788   803772   799552   794729   
  480.000000  790316   785795   780409   774638   769320   
  475.000000  763506   757626   751603   745597   739532   
  470.000000  733433   726001   719667   713309   706388   
  465.000000  698880   691675   685492   678521   671970   
  460.000000  664395   656610   649648   642727   635219   
  455.000000  628257   621940   615607   608124   601128   
  450.000000  596053   590047   583470   577942   572607   
  445.000000  567490   562616   557641   552751   549077   
  440.000000  544471   540940   538046   536032   533440   
  435.000000  533054   532048   532308   532207   533835   
  430.000000  534363   537635   540302   543599   547667   
  425.000000  551971   557977   563874   569939   578252   
  420.000000  585425   593729   602965   613258   622720   
  415.000000  634531   645814   657894   670057   682430   
  410.000000  696045   709484   723124   738072   752568   
  405.000000  768204   783530   799435   813746   830825   
  400.000000  846570   862483   878523   894855   910299   
  395.000000  926220   943106   958684   975168   990955   
  390.000000  1006591  1022496  1037805  1051882  1066226  
  385.000000  1080604  1093623  1106357  1118613  1132689  
  380.000000  1143737  1148183  1154676  1167879  1177090  
  375.000000  1186779  1193699  1200628  1207490  1212473  
  370.000000  1218202  1224049  1228067  1231884  1235651  
  365.000000  1238444  1243217  1246782  1252663  1257688  
  360.000000  1265690  1273945  1286536  1301032  1318564  
  355.000000  1341431  1368426  1401527  1443361  1494137  
  350.000000  1554670  
##END= 
##TITLE= Aquation of trans-[Co(en)2Cl2]+ (t15)
##JCAMP-DX= 4.24
##DATA TYPE= UV/VIS SPECTRUM
##BLOCK_ID=15
##ORIGIN= Dept of Chem, UWI, Mona, JAMAICA $$Exported PE IR WinLab Data File
##OWNER= R.J. Lancashire
##DATE= 96/11/06
##TIME= 19:05:09.00
##SPECTROMETER/DATA SYSTEM= PERKIN-ELMER LAMBDA 19 UV/VIS/NIR UV
##RESOLUTION= 1.000000
##DELTAX= -1.000000
##XUNITS= nanometers
##YUNITS= ABSORBANCE
##XFACTOR= 1.00
##YFACTOR= .00000011920928955078
##FIRSTX= 700.00
##LASTX= 350.00
##NPOINTS= 351
##FIRSTY= .18
##MAXY= -.012406
##MINY= .18
##XYDATA= (X++(Y..Y))
  700.000000  -104069  -100999  -98986   -95546   -92903   
  695.000000  -89833   -86187   -83157   -80095   -77016   
  690.000000  -73032   -69861   -66522   -61975   -59056   
  685.000000  -55810   -51783   -47471   -42866   -39024   
  680.000000  -33781   -30392   -25686   -21081   -15603   
  675.000000  -11468   -6753    -1586    4404     9194     
  670.000000  13120    19336    24621    30015    35409    
  665.000000  40945    46616    53050    59417    65339    
  660.000000  70255    76463    83400    89834    95429    
  655.000000  101209   107735   114555   120796   126224   
  650.000000  133304   140677   145987   151826   158981   
  645.000000  165793   171455   177872   184206   191722   
  640.000000  197107   203139   210101   216879   222642   
  635.000000  228405   235116   241273   246894   252925   
  630.000000  258663   264694   270449   275868   281178   
  625.000000  286899   292108   297477   302133   308072   
  620.000000  313239   318163   322626   328213   332609   
  615.000000  335838   340049   345343   350132   354193   
  610.000000  357716   362296   366230   370307   373444   
  605.000000  376632   380281   384199   388217   391253   
  600.000000  395028   397771   401404   404658   408828   
  595.000000  411856   414750   419179   421863   424607   
  590.000000  428398   431250   433440   437735   441510   
  585.000000  443993   446778   450695   453723   457154   
  580.000000  460719   463874   467732   471490   474443   
  575.000000  478294   482454   486825   490449   494526   
  570.000000  498904   502872   508434   512158   517477   
  565.000000  521881   527468   532736   539153   544144   
  560.000000  550025   556484   562406   568345   575258   
  555.000000  581297   587782   595365   601841   608434   
  550.000000  615414   623123   630555   637946   645319   
  545.000000  653657   661199   668514   676927   684284   
  540.000000  692111   700273   708955   715825   724306   
  535.000000  732250   739951   748138   755747   763255   
  530.000000  770242   777717   785317   791491   798705   
  525.000000  805407   811858   818007   824508   829709   
  520.000000  835053   840606   845555   850303   854355   
  515.000000  858943   862718   866208   869018   872567   
  510.000000  875175   876669   878816   879974   881349   
  505.000000  882767   882281   882633   882499   881903   
  500.000000  881442   879840   878170   877172   874429   
  495.000000  872290   869329   865956   862802   859883   
  490.000000  855496   852459   847686   842904   838710   
  485.000000  833753   829894   824970   819861   815843   
  480.000000  809937   804283   798713   792715   786038   
  475.000000  779940   773178   766224   759882   752240   
  470.000000  745412   737904   730858   723644   715658   
  465.000000  708343   700642   693101   685417   677708   
  460.000000  670166   661971   654421   646779   638977   
  455.000000  631679   623828   617075   609206   602193   
  450.000000  596095   588830   582782   576482   570744   
  445.000000  565191   560116   554370   549999   544446   
  440.000000  540998   537777   533877   531494   529464   
  435.000000  526872   526486   526797   526948   527543   
  430.000000  528189   531511   532769   537492   540998   
  425.000000  545528   550746   556543   563329   570937   
  420.000000  578420   587757   596531   606203   616672   
  415.000000  627712   639640   650831   663707   676542   
  410.000000  690475   703620   718308   733785   748910   
  405.000000  763188   779461   795542   811053   826874   
  400.000000  844599   861091   877466   894419   910676   
  395.000000  927638   944725   961108   978213   994310   
  390.000000  1009293  1026087  1041454  1057317  1071326  
  385.000000  1086300  1099680  1113295  1126842  1137563  
  380.000000  1151245  1155523  1164733  1177652  1185982  
  375.000000  1193221  1202533  1210024  1216760  1222724  
  370.000000  1228126  1232396  1236095  1239946  1242890  
  365.000000  1247277  1251170  1254399  1259223  1264600  
  360.000000  1271554  1279834  1291041  1304899  1320074  
  355.000000  1342580  1368593  1399640  1440140  1487124  
  350.000000  1544922  
##END= 
##TITLE= Aquation of trans-[Co(en)2Cl2]+ (t16)
##JCAMP-DX= 4.24
##DATA TYPE= UV/VIS SPECTRUM
##BLOCK_ID=16
##ORIGIN= Dept of Chem, UWI, Mona, JAMAICA $$Exported PE IR WinLab Data File
##OWNER= R.J. Lancashire
##DATE= 96/11/06
##TIME= 19:05:18.00
##SPECTROMETER/DATA SYSTEM= PERKIN-ELMER LAMBDA 19 UV/VIS/NIR UV
##RESOLUTION= 1.000000
##DELTAX= -1.000000
##XUNITS= nanometers
##YUNITS= ABSORBANCE
##XFACTOR= 1.00
##YFACTOR= .00000011920928955078
##FIRSTX= 700.00
##LASTX= 350.00
##NPOINTS= 351
##FIRSTY= .18
##MAXY= -.012576
##MINY= .18
##XYDATA= (X++(Y..Y))
  700.000000  -105495  -103499  -100529  -98062   -94539   
  695.000000  -91268   -89321   -84880   -82158   -79919   
  690.000000  -75296   -72478   -69928   -65230   -61606   
  685.000000  -57940   -54484   -50701   -46566   -41977   
  680.000000  -38127   -33974   -30082   -24596   -20611   
  675.000000  -15796   -11107   -6015    -2005    3272     
  670.000000  8716     14009    18799    23832    30191    
  665.000000  35425    40249    46431    51909    57353    
  660.000000  63041    69223    74785    81504    87309    
  655.000000  92988    99229    105504   111284   117223   
  650.000000  124856   130603   136819   142925   149469   
  645.000000  156087   162538   168595   174492   180657   
  640.000000  186580   192896   199238   205395   210680   
  635.000000  217693   223817   229630   236114   241424   
  630.000000  246860   253177   258973   264493   269929   
  625.000000  275726   281916   286891   291580   296261   
  620.000000  301646   306201   311427   316813   321527   
  615.000000  325520   329312   335218   339278   343296   
  610.000000  347448   352699   356684   360492   365349   
  605.000000  369049   372555   376884   380667   383234   
  600.000000  388049   391463   395481   399558   402108   
  595.000000  406277   409281   413760   416721   421318   
  590.000000  424690   427685   431703   435117   439253   
  585.000000  443112   445519   449898   454394   457221   
  580.000000  461407   465493   469259   472883   478503   
  575.000000  481322   486078   491506   494870   499030   
  570.000000  504936   510036   514826   519901   525647   
  565.000000  530538   535739   542055   549295   555158   
  560.000000  560728   568027   574704   580811   587748   
  555.000000  594224   601363   609215   616135   623693   
  550.000000  631889   639296   647358   654933   663598   
  545.000000  671450   679167   688219   696154   704316   
  540.000000  713368   721354   729809   738726   746243   
  535.000000  755218   763481   771123   779176   787229   
  530.000000  794863   802799   810524   817713   825565   
  525.000000  831949   838735   845169   851394   857341   
  520.000000  863264   868297   874420   879026   883665   
  515.000000  887381   891600   895333   898991   901860   
  510.000000  904527   906826   909351   910089   911196   
  505.000000  911985   912295   912404   911263   910886   
  500.000000  909913   908386   906507   904661   901809   
  495.000000  899209   896231   892708   889369   885066   
  490.000000  881232   876627   872483   868070   862718   
  485.000000  857601   851234   847149   841369   835321   
  480.000000  829483   822789   816254   810449   803738   
  475.000000  795643   789628   781324   774143   766266   
  470.000000  758255   751016   742317   734935   726806   
  465.000000  718510   710172   701884   694225   684712   
  460.000000  677414   668975   660368   652450   644212   
  455.000000  636125   628190   620095   612537   605037   
  450.000000  597756   590449   583881   577472   571642   
  445.000000  564973   559529   553523   547735   543683   
  440.000000  538918   535345   531595   528466   526251   
  435.000000  525245   523525   523022   523609   522560   
  430.000000  524095   525530   528575   532140   535764   
  425.000000  540822   545981   550754   557474   564638   
  420.000000  572959   580710   591330   600977   611136   
  415.000000  621982   634188   646192   659085   672188   
  410.000000  685702   699921   714919   730061   745655   
  405.000000  760688   777398   793479   810231   825926   
  400.000000  842628   860177   876878   894327   910575   
  395.000000  928619   946848   963633   980587   996391   
  390.000000  1013151  1030608  1046957  1061428  1076242  
  385.000000  1092029  1107632  1121020  1133930  1146455  
  380.000000  1159004  1164910  1172090  1185529  1193783  
  375.000000  1203506  1212599  1219972  1226885  1233143  
  370.000000  1238444  1242588  1246791  1250549  1254307  
  365.000000  1256907  1260489  1263702  1267813  1273601  
  360.000000  1279758  1287501  1296611  1309454  1324629  
  355.000000  1344761  1368694  1400814  1437070  1484625  
  350.000000  1541214  
##END= 
##TITLE= Aquation of trans-[Co(en)2Cl2]+ (t17)
##JCAMP-DX= 4.24
##DATA TYPE= UV/VIS SPECTRUM
##BLOCK_ID=17
##ORIGIN= Dept of Chem, UWI, Mona, JAMAICA $$Exported PE IR WinLab Data File
##OWNER= R.J. Lancashire
##DATE= 96/11/06
##TIME= 19:05:27.00
##SPECTROMETER/DATA SYSTEM= PERKIN-ELMER LAMBDA 19 UV/VIS/NIR UV
##RESOLUTION= 1.000000
##DELTAX= -1.000000
##XUNITS= nanometers
##YUNITS= ABSORBANCE
##XFACTOR= 1.00
##YFACTOR= .00000011920928955078
##FIRSTX= 700.00
##LASTX= 350.00
##NPOINTS= 351
##FIRSTY= .18
##MAXY= -.012778
##MINY= .18
##XYDATA= (X++(Y..Y))
  700.000000  -107190  -104724  -102190  -99153   -96561   
  695.000000  -93818   -91528   -88420   -85916   -82653   
  690.000000  -79868   -75137   -72654   -69139   -64752   
  685.000000  -61724   -57588   -53847   -49728   -46373   
  680.000000  -42153   -37481   -33345   -30375   -24990   
  675.000000  -21047   -16274   -11778   -7164    -2324    
  670.000000  1980     7869     13196    18212    22792    
  665.000000  28429    33387    40014    44972    50785    
  660.000000  55936    62110    67839    73812    79801    
  655.000000  84901    92007    96729    102408   109396   
  650.000000  115713   122013   127641   133362   139067   
  645.000000  146214   152153   157916   164350   170398   
  640.000000  177042   183057   188677   195086   201251   
  635.000000  206033   212316   218154   224463   230628   
  630.000000  236274   241877   248077   253194   258000   
  625.000000  263537   269744   274912   279668   285163   
  620.000000  290431   295808   301395   305706   310773   
  615.000000  315009   319581   324388   329194   333515   
  610.000000  337583   342499   347658   351416   355333   
  605.000000  359645   364041   368336   371943   376053   
  600.000000  380424   384492   388183   392797   396865   
  595.000000  400397   404650   409121   412426   416151   
  590.000000  420286   424070   428063   432198   436560   
  585.000000  440000   444060   448028   451987   456164   
  580.000000  460409   465333   470584   475114   479653   
  575.000000  484266   488880   494215   498426   503225   
  570.000000  508669   513996   519708   526042   531872   
  565.000000  537735   543867   550293   557667   563757   
  560.000000  570602   577137   584502   591632   598695   
  555.000000  606363   614248   621940   629943   637660   
  550.000000  646309   654144   662331   671391   679142   
  545.000000  688109   697203   705608   714508   724055   
  540.000000  732552   741176   750168   757886   767332   
  535.000000  775963   784990   793907   802731   810457   
  530.000000  818510   826161   834549   842217   850043   
  525.000000  857073   864010   871057   877541   883958   
  520.000000  889814   895115   900610   905668   910399   
  515.000000  915122   919316   923091   926531   929802   
  510.000000  932319   935011   936563   937612   939239   
  505.000000  939717   939843   939583   939566   938803   
  500.000000  937352   935968   933812   931429   929106   
  495.000000  925599   922663   918779   914954   910651   
  490.000000  906079   901532   896113   890594   884587   
  485.000000  878338   873900   867676   861317   855253   
  480.000000  848978   842602   835397   827763   820633   
  475.000000  812387   805223   796750   789209   781064   
  470.000000  771878   763842   755109   746251   736881   
  465.000000  728526   719399   710666   701615   692262   
  460.000000  683513   675032   665964   656661   648322   
  455.000000  639556   631134   622645   614390   606052   
  450.000000  598981   591104   584049   577288   570661   
  445.000000  564503   557306   551585   546300   540839   
  440.000000  536217   532350   528156   525421   522258   
  435.000000  520404   518014   517636   517468   517980   
  430.000000  518894   520866   523324   526620   530035   
  425.000000  534447   540269   545906   551988   558648   
  420.000000  566752   575752   584351   594191   605264   
  415.000000  616370   628022   639925   652626   666324   
  410.000000  681088   695240   709660   725145   741151   
  405.000000  757584   773145   790551   806943   824684   
  400.000000  841663   858759   876375   893463   911607   
  395.000000  928921   947787   964355   982147   999813   
  390.000000  1016339  1034081  1050472  1066251  1082777  
  385.000000  1098472  1111910  1126842  1139886  1153367  
  380.000000  1166805  1172401  1181385  1193741  1204521  
  375.000000  1214964  1222095  1228026  1235827  1243133  
  370.000000  1247277  1252915  1256060  1260817  1262243  
  365.000000  1266588  1269046  1272577  1276386  1280974  
  360.000000  1286184  1293708  1302550  1313463  1328487  
  355.000000  1347421  1370582  1399161  1436214  1479860  
  350.000000  1533673  
##END= 
##TITLE= Aquation of trans-[Co(en)2Cl2]+ (t18)
##JCAMP-DX= 4.24
##DATA TYPE= UV/VIS SPECTRUM
##BLOCK_ID=18
##ORIGIN= Dept of Chem, UWI, Mona, JAMAICA $$Exported PE IR WinLab Data File
##OWNER= R.J. Lancashire
##DATE= 96/11/06
##TIME= 19:05:47.00
##SPECTROMETER/DATA SYSTEM= PERKIN-ELMER LAMBDA 19 UV/VIS/NIR UV
##RESOLUTION= 1.000000
##DELTAX= -1.000000
##XUNITS= nanometers
##YUNITS= ABSORBANCE
##XFACTOR= 1.00
##YFACTOR= .00000011920928955078
##FIRSTX= 700.00
##LASTX= 350.00
##NPOINTS= 351
##FIRSTY= .18
##MAXY= -.012940
##MINY= .18
##XYDATA= (X++(Y..Y))
  700.000000  -108549  -106854  -103960  -101594  -98490   
  695.000000  -95252   -92803   -89980   -88215   -84574   
  690.000000  -81378   -77939   -75255   -72092   -68116   
  685.000000  -64391   -60927   -57697   -53964   -51137   
  680.000000  -46658   -41256   -37204   -34545   -29872   
  675.000000  -25678   -19957   -15570   -12776   -8011    
  670.000000  -3079    2567     6913     12340    17348    
  665.000000  22473    27549    32406    38009    43286    
  660.000000  49460    54585    59509    64911    70809    
  655.000000  76815    82175    87972    93877    100076   
  650.000000  106116   112181   118036   124059   130124   
  645.000000  136215   141709   147346   153403   159376   
  640.000000  165315   171883   177906   183493   189247   
  635.000000  195069   201746   207585   213297   219161   
  630.000000  224916   230352   236953   241458   247884   
  625.000000  252816   258671   264283   269333   274601   
  620.000000  280046   284634   289583   295019   300279   
  615.000000  305388   310672   314632   319640   323876   
  610.000000  328909   334144   338439   343472   347113   
  605.000000  351559   356483   360509   365140   369611   
  600.000000  373595   377882   382034   386908   390591   
  595.000000  395607   399273   403367   408542   413232   
  590.000000  416830   421520   426024   430663   435059   
  585.000000  439245   443514   448371   453086   457297   
  580.000000  461810   466927   471809   476800   482672   
  575.000000  487622   492412   497277   503636   509298   
  570.000000  515522   520849   526042   532853   539153   
  565.000000  546216   552248   559227   567406   573873   
  560.000000  580467   588109   596271   604064   611379   
  555.000000  619457   627300   635714   643910   652458   
  550.000000  660813   669655   678043   687396   696364   
  545.000000  705331   713636   723258   732678   741981   
  540.000000  750965   759916   769622   779084   787934   
  535.000000  796515   805953   815256   824231   832377   
  530.000000  841042   849011   858029   865730   872919   
  525.000000  880838   888832   895795   902749   909023   
  520.000000  915172   921053   926807   932277   937327   
  515.000000  941680   945287   949901   954070   956713   
  510.000000  959036   961150   963382   965152   966100   
  505.000000  966527   967014   967190   966670   965621   
  500.000000  964195   961679   959296   957149   954767   
  495.000000  951008   946697   942595   938593   933988   
  490.000000  929165   923209   919534   913394   907614   
  485.000000  901029   894377   888832   882524   876165   
  480.000000  867928   861133   853659   845790   836613   
  475.000000  829575   820826   812253   803243   794116   
  470.000000  785359   776559   767164   757517   748038   
  465.000000  739137   729885   720406   710776   701087   
  460.000000  691129   682045   672700   663581   653347   
  455.000000  644556   635697   627267   617586   609089   
  450.000000  600717   593192   585525   577481   570669   
  445.000000  563455   556140   550478   545243   540151   
  440.000000  534254   529783   526872   523324   519532   
  435.000000  517158   515438   514256   513769   513517   
  430.000000  514700   516688   518307   520958   525001   
  425.000000  530043   534548   539480   546569   553548   
  420.000000  561945   570375   579225   589770   599534   
  415.000000  612218   622594   635052   648129   662415   
  410.000000  675325   691649   706447   721832   737200   
  405.000000  754187   771392   787707   805013   822671   
  400.000000  841093   857895   876031   893119   911876   
  395.000000  930649   949717   965596   984127   1001718  
  390.000000  1019644  1037361  1054599  1070202  1086602  
  385.000000  1102406  1118235  1133410  1147352  1160187  
  380.000000  1172510  1181200  1189698  1202558  1212901  
  375.000000  1221893  1229913  1240466  1245541  1250994  
  370.000000  1257209  1261119  1265195  1268752  1272435  
  365.000000  1275304  1276923  1280060  1282619  1288373  
  360.000000  1292668  1299295  1307239  1318597  1332841  
  355.000000  1350633  1371932  1398390  1433681  1475372  
  350.000000  1526794  
##END= 
##TITLE= Aquation of trans-[Co(en)2Cl2]+ (t19)
##JCAMP-DX= 4.24
##DATA TYPE= UV/VIS SPECTRUM
##BLOCK_ID=19
##ORIGIN= Dept of Chem, UWI, Mona, JAMAICA $$Exported PE IR WinLab Data File
##OWNER= R.J. Lancashire
##DATE= 96/11/06
##TIME= 19:05:57.00
##SPECTROMETER/DATA SYSTEM= PERKIN-ELMER LAMBDA 19 UV/VIS/NIR UV
##RESOLUTION= 1.000000
##DELTAX= -1.000000
##XUNITS= nanometers
##YUNITS= ABSORBANCE
##XFACTOR= 1.00
##YFACTOR= .00000011920928955078
##FIRSTX= 700.00
##LASTX= 350.00
##NPOINTS= 351
##FIRSTY= .18
##MAXY= -.013210
##MINY= .18
##XYDATA= (X++(Y..Y))
  700.000000  -110814  -109128  -106343  -104345  -102089  
  695.000000  -99153   -96276   -92824   -89775   -87452   
  690.000000  -84323   -81143   -77251   -74105   -70456   
  685.000000  -67789   -64408   -60725   -56909   -53872   
  680.000000  -49317   -44854   -41952   -37917   -33362   
  675.000000  -29973   -25317   -21165   -16274   -11535   
  670.000000  -7349    -2408    2181     6845     11208    
  665.000000  16526    21710    26869    31508    36650    
  660.000000  42531    48143    53721    58754    63150    
  655.000000  69240    75053    79793    86185    91377    
  650.000000  97493    104011   108910   114681   120217   
  645.000000  126702   133119   138211   144838   150467   
  640.000000  155785   162328   167403   174114   180297   
  635.000000  185070   191437   197493   203802   208701   
  630.000000  215151   220872   225713   232046   237733   
  625.000000  242951   247749   253210   259057   264275   
  620.000000  269535   273872   279635   285498   290045   
  615.000000  294877   299339   304582   309641   314909   
  610.000000  318499   323817   329220   333187   338456   
  605.000000  342985   347247   352121   356525   361046   
  600.000000  366088   370601   375349   379736   384366   
  595.000000  388636   392621   398367   402494   407133   
  590.000000  411940   417317   421813   426301   431334   
  585.000000  435940   440696   445620   451165   456131   
  580.000000  461214   465954   471105   477262   482933   
  575.000000  487689   493368   499676   505078   512150   
  570.000000  517418   523206   530093   537098   543356   
  565.000000  550226   556912   563992   573043   581079   
  560.000000  588142   596338   603737   612235   620330   
  555.000000  629482   637744   646192   654958   663673   
  550.000000  672834   682288   690869   700575   709534   
  545.000000  719575   729583   738349   747325   758230   
  540.000000  768070   777524   786483   797078   806833   
  535.000000  815985   825188   834633   844498   852954   
  530.000000  862190   870587   879403   888144   896340   
  525.000000  903839   911179   918654   926136   932847   
  520.000000  940095   945640   951386   957459   962954   
  515.000000  966855   971678   975637   979194   982868   
  510.000000  984982   986962   989437   991156   991718   
  505.000000  992222   992859   992532   991995   990687   
  500.000000  988480   986945   985133   982013   978397   
  495.000000  974933   970864   966880   962845   957300   
  490.000000  951478   945405   939994   934315   927999   
  485.000000  921959   915013   907983   900836   893236   
  480.000000  885779   878111   870016   861896   852929   
  475.000000  844012   834835   825767   815935   806884   
  470.000000  797161   787020   777348   767113   757668   
  465.000000  747451   737527   726823   717260   706640   
  460.000000  696884   687262   676735   666333   657718   
  455.000000  647525   638214   628315   619491   610876   
  450.000000  601480   592756   584644   576843   569310   
  445.000000  562155   555519   549110   542433   536544   
  440.000000  532157   527459   522527   518844   515178   
  435.000000  513358   511211   509113   508014   509029   
  430.000000  509592   510850   512519   515656   519155   
  425.000000  522434   527686   533398   541074   547214   
  420.000000  555259   563195   572431   582883   593973   
  415.000000  604853   617268   628970   643490   655981   
  410.000000  669797   685022   701447   717293   733525   
  405.000000  750370   766677   783790   801926   820096   
  400.000000  838148   856586   874362   892271   911112   
  395.000000  930834   948525   967123   985435   1003873  
  390.000000  1021833  1039810  1057410  1074967  1091719  
  385.000000  1107490  1121926  1137655  1151865  1167175  
  380.000000  1180588  1187316  1197424  1209118  1221130  
  375.000000  1228621  1239937  1246296  1253695  1259391  
  370.000000  1265925  1269566  1274859  1277535  1280916  
  365.000000  1283290  1285949  1289413  1291359  1294270  
  360.000000  1299849  1305478  1313405  1323068  1336708  
  355.000000  1353041  1373081  1399128  1431458  1471622  
  350.000000  1521987  
##END= 
##TITLE= Aquation of trans-[Co(en)2Cl2]+ (t20)
##JCAMP-DX= 4.24
##DATA TYPE= UV/VIS SPECTRUM
##BLOCK_ID=20
##ORIGIN= Dept of Chem, UWI, Mona, JAMAICA $$Exported PE IR WinLab Data File
##OWNER= R.J. Lancashire
##DATE= 96/11/06
##TIME= 19:06:06.00
##SPECTROMETER/DATA SYSTEM= PERKIN-ELMER LAMBDA 19 UV/VIS/NIR UV
##RESOLUTION= 1.000000
##DELTAX= -1.000000
##XUNITS= nanometers
##YUNITS= ABSORBANCE
##XFACTOR= 1.00
##YFACTOR= .00000011920928955078
##FIRSTX= 700.00
##LASTX= 350.00
##NPOINTS= 351
##FIRSTY= .18
##MAXY= -.013414
##MINY= .18
##XYDATA= (X++(Y..Y))
  700.000000  -112525  -110210  -107760  -105251  -102835  
  695.000000  -99480   -97777   -95609   -91612   -89238   
  690.000000  -85900   -83752   -80674   -76764   -74776   
  685.000000  -71866   -67462   -63871   -60138   -57622   
  680.000000  -53755   -50315   -46062   -42145   -38361   
  675.000000  -34327   -30585   -26223   -21542   -17407   
  670.000000  -13321   -8179    -3582    260      5335     
  665.000000  10671    15628    20343    25133    30719    
  660.000000  35367    40039    45030    50374    56296    
  655.000000  62017    67000    73501    78904    85103    
  650.000000  89566    95001    100966   106938   112911   
  645.000000  118255   124118   130116   136189   142238   
  640.000000  147590   152983   158805   164484   170264   
  635.000000  177109   182838   188039   193693   200236   
  630.000000  205555   210840   217173   221904   228019   
  625.000000  233422   238698   244461   249226   255694   
  620.000000  260274   266498   270676   275767   281178   
  615.000000  286278   291270   296387   302225   306461   
  610.000000  311637   316553   322014   326745   331115   
  605.000000  336123   340242   345275   349562   355442   
  600.000000  359620   365140   370097   374938   380256   
  595.000000  384316   389408   393686   399013   404247   
  590.000000  409146   414733   419942   425462   429816   
  585.000000  434505   439832   445024   451081   455921   
  580.000000  461768   466860   472715   479082   484728   
  575.000000  490667   496530   502243   509155   515581   
  570.000000  522611   529397   535747   543096   549521   
  565.000000  557105   564369   572422   581507   588067   
  560.000000  596405   604853   613392   621907   630715   
  555.000000  639313   648155   657609   666408   675510   
  550.000000  685249   695139   705289   715154   724868   
  545.000000  734163   744993   754245   764446   774621   
  540.000000  784688   794653   804459   815079   824584   
  535.000000  835028   844809   854539   863767   872835   
  530.000000  883279   892347   901298   909904   917714   
  525.000000  926170   934114   942167   949742   956050   
  520.000000  962862   969942   975772   981803   986878   
  515.000000  992389   996575   1000694  1004444  1007825  
  510.000000  1010157  1012925  1015920  1016926  1017908  
  505.000000  1019258  1018931  1018738  1017648  1016683  
  500.000000  1014250  1011960  1010224  1007388  1003857  
  495.000000  999797   995636   990905   985150   980494   
  490.000000  975033   969136   962920   956839   949348   
  485.000000  942721   935364   926967   920281   913084   
  480.000000  903906   896172   887121   878397   869362   
  475.000000  860202   850387   840279   830112   820297   
  470.000000  810575   799955   789192   779294   768917   
  465.000000  757794   747300   736495   725758   715742   
  460.000000  705071   694443   683898   672758   662390   
  455.000000  653104   643071   632929   622662   613845   
  450.000000  604895   596808   587203   579351   570753   
  445.000000  563740   556694   549630   542458   536309   
  440.000000  530630   525362   521143   516839   514121   
  435.000000  511060   508677   507696   505724   504542   
  430.000000  506135   506966   509919   512888   515203   
  425.000000  519314   523609   529112   535370   542198   
  420.000000  549697   558489   567884   578680   589132   
  415.000000  601388   612721   625027   637996   652106   
  410.000000  667566   682649   698813   714123   729440   
  405.000000  747576   763632   781542   799871   817705   
  400.000000  835732   854405   873288   892699   911699   
  395.000000  930263   949020   968557   986702   1005618  
  390.000000  1024744  1043107  1060228  1079010  1095964  
  385.000000  1111894  1128243  1143502  1158761  1173357  
  380.000000  1186611  1195134  1205259  1215912  1228990  
  375.000000  1237521  1247353  1255213  1261966  1267997  
  370.000000  1274708  1278475  1283281  1287702  1288927  
  365.000000  1292643  1294648  1296191  1299144  1303322  
  360.000000  1307298  1312927  1319302  1329351  1340190  
  355.000000  1355574  1374717  1399665  1432464  1469710  
  350.000000  1518112  
##END= 
##END=   $$end of all blocks